Folder: SupportingInformation_ReDD-COFFEE_2023/Benchmarks/PeriodicFFValidation/PXRDs/input_files/PXRD/Structures_Database/dia_30-03-12_06-12-12

Note: Benchmarks/PeriodicFFValidation/PXRDs/input_files/PXRD/Structures_Database/dia_30-03-12_06-12-12/pars_cluster.txt
# Bond stretch
# ============
#
# Mathematical form:
# E_BONDHARM = 0.5*K*(r - R0)**2
#

BONDHARM:UNIT  K kjmol/A**2
BONDHARM:UNIT  R0 A

#---------------------------------------------------------------------------------------------
# KEY         label0                label1                 K                 R0               
#---------------------------------------------------------------------------------------------
BONDHARM:PARS C_H2C2_30-03-12       H_C_30-03-12           3.2094445594e+03  1.0882559723e+00 
BONDHARM:PARS C_C3N_30-03-12        C_H2C2_30-03-12        2.3585916389e+03  1.5376526128e+00 
BONDHARM:PARS C_C3_06-12-12         C_HC2_06-12-12         4.1281557142e+03  1.3861535667e+00 
BONDHARM:PARS C_C3_06-12-12         C_C3_06-12-12          3.9118893582e+03  1.3929012712e+00 
BONDHARM:PARS C_HC2_06-12-12        H_C_06-12-12           3.3883693208e+03  1.0819242584e+00 
BONDHARM:PARS C_C3_06-12-12         C_CNO_06-12-12         2.7684715337e+03  1.4969867070e+00 
BONDHARM:PARS C_CNO_06-12-12        N_C3_06-12-12          3.0278773882e+03  1.4103617296e+00 
BONDHARM:PARS C_CNO_06-12-12        O_C_06-12-12           7.8145960787e+03  1.2106199349e+00 
BONDHARM:PARS C_C3N_30-03-12        N_C3_06-12-12          2.7732497660e+03  1.4590711864e+00 



# Angle bend
# ==========
#
# Mathematical form:
# E_BENDAHARM = 0.5*K*(theta - THETA0)**2
#

BENDAHARM:UNIT  K kjmol/rad**2
BENDAHARM:UNIT  THETA0 deg

#--------------------------------------------------------------------------------------------------------------------
# KEY          label0                label1                label2                 K                 THETA0           
#--------------------------------------------------------------------------------------------------------------------
BENDAHARM:PARS C_C3N_30-03-12        C_H2C2_30-03-12       H_C_30-03-12           3.5567891564e+02  1.0908261283e+02 
BENDAHARM:PARS H_C_30-03-12          C_H2C2_30-03-12       H_C_30-03-12           3.1072595773e+02  1.0917502095e+02 
BENDAHARM:PARS C_C3N_30-03-12        C_H2C2_30-03-12       C_C3N_30-03-12         5.5904080749e+02  1.0967695802e+02 
BENDAHARM:PARS C_H2C2_30-03-12       C_C3N_30-03-12        C_H2C2_30-03-12        7.2512787817e+02  1.0948597519e+02 
BENDAHARM:PARS C_CNO_06-12-12        C_C3_06-12-12         C_HC2_06-12-12         3.0097287170e+02  1.2969722279e+02 
BENDAHARM:PARS C_C3_06-12-12         C_C3_06-12-12         C_CNO_06-12-12         5.5326933458e+02  1.0793599367e+02 
BENDAHARM:PARS C_C3_06-12-12         C_C3_06-12-12         C_HC2_06-12-12         5.2041089674e+02  1.2299378522e+02 
BENDAHARM:PARS C_C3_06-12-12         C_HC2_06-12-12        C_C3_06-12-12          5.9238032926e+02  1.1459760668e+02 
BENDAHARM:PARS C_C3_06-12-12         C_HC2_06-12-12        H_C_06-12-12           2.7257107975e+02  1.2224166583e+02 
BENDAHARM:PARS C_C3_06-12-12         C_CNO_06-12-12        N_C3_06-12-12          8.6860625310e+02  1.0621074834e+02 
BENDAHARM:PARS N_C3_06-12-12    

Note: Benchmarks/PeriodicFFValidation/PXRDs/input_files/PXRD/Structures_Database/dia_30-03-12_06-12-12/pars_uff.txt
# Bond stretch
# ============
#
# Mathematical form:
# E_BONDHARM = 0.5*K*(r - R0)**2
#

BONDHARM:UNIT K kcalmol/A**2
BONDHARM:UNIT R0 A

#---------------------------------------------------------------------------------------------
# KEY         label0                label1                 K                 R0               
#---------------------------------------------------------------------------------------------
BONDHARM:PARS C_C3N_30-03-12        C_H2C2_30-03-12        6.9959179871e+02  1.5140000000e+00 
BONDHARM:PARS H_C_30-03-12          C_H2C2_30-03-12        6.6213877753e+02  1.1094007949e+00 
BONDHARM:PARS C_CNO_06-12-12        C_C3_06-12-12          9.2531010822e+02  1.3792564054e+00 
BONDHARM:PARS C_HC2_06-12-12        C_C3_06-12-12          9.2531010822e+02  1.3792564054e+00 
BONDHARM:PARS H_C_06-12-12          C_HC2_06-12-12         7.1488076209e+02  1.0814180403e+00 
BONDHARM:PARS O_C_06-12-12          C_CNO_06-12-12         1.6211573388e+03  1.2167808671e+00 
BONDHARM:PARS N_C3_06-12-12         C_CNO_06-12-12         1.3274378537e+03  1.3450727842e+00 
BONDHARM:PARS C_C3_06-12-12         C_C3_06-12-12          9.2531010822e+02  1.3792564054e+00 
BONDHARM:PARS N_C3_06-12-12         C_C3N_30-03-12         1.0912160827e+03  1.4361355222e+00 



# Angle bend
# ==========
#
# Mathematical form:
# E_BENDCHARM = 0.5*K*(cos(phi) - COS0)**2
#

BENDCHARM:UNIT K kcalmol
BENDCHARM:UNIT COS0 1

#--------------------------------------------------------------------------------------------------------------------
# KEY          label0                label1                label2                 K                 COS0             
#--------------------------------------------------------------------------------------------------------------------
BENDCHARM:PARS H_C_30-03-12          C_H2C2_30-03-12       H_C_30-03-12           8.4934831918e+01 -3.3331324757e-01 
BENDCHARM:PARS C_C3N_30-03-12        C_H2C2_30-03-12       C_C3N_30-03-12         2.4098466816e+02 -3.3331324757e-01 
BENDCHARM:PARS C_H2C2_30-03-12       C_C3N_30-03-12        C_H2C2_30-03-12        2.4098466816e+02 -3.3331324757e-01 
BENDCHARM:PARS H_C_30-03-12          C_H2C2_30-03-12       C_C3N_30-03-12         1.3198152975e+02 -3.3331324757e-01 



# Angle bend
# ==========
#
# Mathematical form:
# E_BENDCOS = 0.5*A*(1-cos(M*(phi - PHI0)))
#

BENDCOS:UNIT A kcalmol
BENDCOS:UNIT PHI0 rad

#---------------------------------------------------------------------------------------------------------------------
# KEY        label0                label1                label2                M   A                 PHI0             
#---------------------------------------------------------------------------------------------------------------------
BENDCOS:PARS C_CNO_06-12-12        C_C3_06-12-12         C_C3_06-12-12         3   4.9465559266e+01  0.0000000000e+00 
BENDCOS:PARS C_C3_06-12-12         C_C3_06-12-12         C_HC2_06-12-12        3   4.9465559266e+01  0.0000000000e+00 
BENDCOS:PA

Note: Benchmarks/PeriodicFFValidation/PXRDs/input_files/PXRD/Structures_Database/dia_30-03-12_06-12-12/README
dia_30-03-12_06-12-12 (PI-COF-4: J. Am. Chem. Soc., 2015, 137, 8352-8355)

Imide linked COF in the dia topology, with
	Tetrahedral SBU 30-03-12 (TAA)
	Linear SBU 06-12-12 (PMDA)
No CURATED tag

PXRD obtained from Fig. S12 and converted to numerical data with WebPlotDigitizer (https://apps.automeris.io/wpd/)

File: PI-COF-4_PXRD.dat
3.48, 0.0432522
3.61, 0.0432522
3.74, 0.0432529
3.87, 0.0432286
4, 0.0434938
4.13, 0.047979
4.26, 0.0618393
4.39, 0.0780256
4.52, 0.124713
4.65, 0.237793
4.78, 0.430781
4.91, 0.634532
5.04, 0.804409
5.17, 0.80037
5.3, 0.594122
5.43, 0.365362
5.56, 0.162795
5.69, 0.058253
5.82, 0.0380135
5.95, 0.0382223
6.08, 0.041644
6.21, 0.0435126
6.34, 0.0505154
6.47, 0.0492866
6.6, 0.0445321
6.73, 0.0378301
6.86, 0.0381558
6.99, 0.0381642
7.12, 0.0381643
7.25, 0.0381513
7.38, 0.0380368
7.51, 0.0470911
7.64, 0.0800083
7.77, 0.152573
7.9, 0.247164
8.03, 0.337465
8.16, 0.394861
8.29, 0.325767
8.42, 0.249963
8.55, 0.144832
8.68, 0.106192
8.81, 0.0997812
8.94, 0.0858756
9.07, 0.0719283
9.2, 0.0553789
9.33, 0.0449919
9.46, 0.0464969
9.59, 0.0676604
9.72, 0.127451
9.85, 0.182501
9.98, 0.237276
10.11, 0.269751
10.24, 0.249592
10.37, 0.200294
10.5, 0.138924
10.63, 0.0877876
10.76, 0.0524265
10.89, 0.0451542
11.02, 0.0394152
11.15, 0.032871
11.28, 0.0278717
11.41, 0.0279983
11.54, 0.0278203
11.67, 0.0332311
11.8, 0.0330862
11.93, 0.0394201
12.06, 0.0518281
12.19, 0.0746515
12.32, 0.109542
12.45, 0.144952
12.58, 0.176549
12.71, 0.184592
12.84, 0.162281
12.97, 0.135059
13.1, 0.0906601
13.23, 0.0653903
13.36, 0.0478951
13.49, 0.0459516
13.62, 0.042973
13.75, 0.0406656
13.88, 0.0382972
14.01, 0.0331375
14.14, 0.0330297
14.27, 0.0355068
14.4, 0.0381989
14.53, 0.0381637
14.66, 0.0381505
14.79, 0.0393415
14.92, 0.0467535
15.05, 0.0509893
15.18, 0.0508636
15.31, 0.054007
15.44, 0.056677
15.57, 0.061081
15.7, 0.056235
15.83, 0.0490364
15.96, 0.0462461
16.09, 0.0432025
16.22, 0.0408623
16.35, 0.0381943
16.48, 0.0381628
16.61, 0.0381632
16.74, 0.0381648
16.87, 0.0400571
17, 0.0458567
17.13, 0.0543189
17.26, 0.0665035
17.39, 0.0810021
17.52, 0.0853314
17.65, 0.0806159
17.78, 0.0706921
17.91, 0.0590992
18.04, 0.0482406
18.17, 0.0430053
18.3, 0.040394
18.43, 0.0432217
18.56, 0.0483233
18.69, 0.0571083
18.82, 0.0644107
18.95, 0.071271
19.08, 0.0720847
19.21, 0.0672589
19.34, 0.0594549
19.47, 0.055954
19.6, 0.0539547
19.73, 0.0511907
19.86, 0.0488162
19.99, 0.0432746
20.12, 0.0458793
20.25, 0.0502611
20.38, 0.0511268
20.51, 0.0483968
20.64, 0.0483358
20.77, 0.0502984
20.9, 0.0549291
21.03, 0.0559114
21.16, 0.0508539
21.29, 0.048236
21.42, 0.045556
21.55, 0.0432131
21.68, 0.0432615
21.81, 0.0454617
21.94, 0.0458854
22.07, 0.0486143
22.2, 0.0483376
22.33, 0.0483406
22.46, 0.0483393
22.59, 0.0484017
22.72, 0.0510974
22.85, 0.0508865
22.98, 0.0508812
23.11, 0.0510632
23.24, 0.0457507
23.37, 0.0432584
23.5, 0.045084
23.63, 0.0483645
23.76, 0.0511486
23.89, 0.0509155
24.02, 0.0481501
24.15, 0.0427959
24.28, 0.0443847
24.41, 0.0460344
24.54, 0.0481454
24.67, 0.0484114
24.8, 0.0520163
24.93, 0.0590753
25.06, 0.0610617
25.19, 0.0592759
25.32, 0.050348
25.45, 0.0481036
25.58, 0.0483407
25.71, 0.0481044
25.84, 0.0509617
25.97, 0.0565391
26.1, 0.0587468
26.23, 0.0614273
26.36, 0.0566328
26.49, 0.051229
26.62, 0.0483832
26.75, 0.0483417
26.88, 0.0483405
27.01, 0.0483451
27.14, 0.0482405
27.27, 0.0509067
27.4, 0.0508819
27.53, 0.0508885
27.66, 0.0507881
27.79, 0.0559836
27.92, 0.0607115
28.05, 0.0610222
28.18, 0.0575497
28.31, 0.055959
28.44, 0.0537619
28.57, 0.0533417
28.7, 0.0505577
28.83, 0.0481801
28.96, 0.0483746
29.09, 0.0510726
29.22, 0.0508796
29.35, 0.0508871
29.48, 0.0509048
29.61, 0.0533285
29.74, 0.0557164
29.87, 0.061217
30, 0.0584773
30.13, 0.0559974
30.26, 0.0559483
30.39, 0.0568475
30.52, 0.0559895
30.65, 0.0515498
30.78, 0.0508537
30.91, 0.0508857
31.04, 0.0508849
31.17, 0.0508835
31.3, 0.0510307
31.43, 0.0565166
31.56, 0.0559663
31.69, 0.0559833
31.82, 0.0521527
31.95, 0.0508489
32.08, 0.0508494
32.21, 0.0483207
32.34, 0.0483321
32.47, 0.048341
32.6, 0.0483407
32.73, 0.0483407
32.86, 0.0483397
32.99, 0.0484137
33.12, 0.0511733
33.25, 0.050628
33.38, 0.0483546
33.51, 0.0483398
33.64, 0.0483404
33.77, 0.0483479
33.9, 0.048409
34.03, 0.0458564
34.16, 0.044573
34.29, 0.0432275
34.42, 0.0432678
34.55, 0.0484118
34.68, 0.0497403
34.81, 0.0507868
34.94, 0.055979
35.07, 0.0612394
35.2, 0.0609077
35.33, 0.0553864
35.46, 0.0530142
35.59, 0.0508579
35.72, 0.048153
35.85, 0.0483468
35.98, 0.0483209
36.11, 0.0459439
36.24, 0.0432689
36.37, 0.0442237
36.5, 0.048295
36.63, 0.048335
36.76, 0.051005
36.89, 0.0508803
37.02, 0.0508851
37.15, 0.0508843
37.28, 0.0508331
37.41, 0.0481138
37.54, 0.0487473
37.67, 0.0433413
37.8, 0.0432596
37.93, 0.0427084
38.06, 0.0481952
38.19, 0.0483429
38.32, 0.0483407
38.45, 0.04834
38.58, 0.0483768
38.71, 0.0472477
38.84, 0.0432547
38.97, 0.0403536
39.1, 0.0431923
39.23, 0.0432535
39.36, 0.0432522
39.49, 0.0432529
39.62, 0.0431985
39.75, 0.0395595
39.88, 0.0381519
39.92, 0.038162