Folder: SupportingInformation_ReDD-COFFEE_2023/Benchmarks/PeriodicFFValidation/input_files/PXRD/Structures_Database/bor_18-08-01_28-01-01_None

Note: Benchmarks/PeriodicFFValidation/input_files/PXRD/Structures_Database/bor_18-08-01_28-01-01_None/pars_cluster.txt
# Bond stretch
# ============
#
# Mathematical form:
# E_BONDHARM = 0.5*K*(r - R0)**2
#

BONDHARM:UNIT  K kjmol/A**2
BONDHARM:UNIT  R0 A

#---------------------------------------------------------------------------------------------
# KEY         label0                label1                 K                 R0               
#---------------------------------------------------------------------------------------------
BONDHARM:PARS C_C3_18-08-01         C_C3_18-08-01          3.2380285453e+03  1.4429525247e+00 
BONDHARM:PARS C_C2O_18-08-01        C_C2O_18-08-01         4.0815172641e+03  1.3993162806e+00 
BONDHARM:PARS C_C3_18-08-01         C_HC2_18-08-01         3.5284286380e+03  1.4128197102e+00 
BONDHARM:PARS C_C2O_18-08-01        C_HC2_18-08-01         4.7137401430e+03  1.3709611559e+00 
BONDHARM:PARS C_HC2_18-08-01        H_C_18-08-01           3.4263108373e+03  1.0864016092e+00 
BONDHARM:PARS C_C2O_18-08-01        O_BC_18-08-01          3.6868653218e+03  1.3789601459e+00 
BONDHARM:PARS B_CO2_18-08-01        O_BC_18-08-01          3.2269410457e+03  1.4014528657e+00 
BONDHARM:PARS C_BC2_H2C2O2_28-01-01 C_HC2_HBC2_28-01-01    3.8545663452e+03  1.3990516407e+00 
BONDHARM:PARS C_HC2_HBC2_28-01-01   C_HC2_HC3_28-01-01     4.0584568218e+03  1.3914036427e+00 
BONDHARM:PARS C_C3_H2C5_28-01-01    C_C4_C8_28-01-01       2.1847052154e+03  1.5488190791e+00 
BONDHARM:PARS C_C3_H2C5_28-01-01    C_HC2_HC3_28-01-01     3.7730547688e+03  1.3945446145e+00 
BONDHARM:PARS C_HC2_HBC2_28-01-01   H1_C_C2_28-01-01       3.3255422939e+03  1.0862039615e+00 
BONDHARM:PARS C_HC2_HC3_28-01-01    H0_C_C2_28-01-01       3.3581938418e+03  1.0857640673e+00 
BONDHARM:PARS B_CO2_18-08-01        C_BC2_H2C2O2_28-01-01  2.6583529503e+03  1.5473426048e+00 



# Angle bend
# ==========
#
# Mathematical form:
# E_BENDAHARM = 0.5*K*(theta - THETA0)**2
#

BENDAHARM:UNIT  K kjmol/rad**2
BENDAHARM:UNIT  THETA0 deg

#--------------------------------------------------------------------------------------------------------------------
# KEY          label0                label1                label2                 K                 THETA0           
#--------------------------------------------------------------------------------------------------------------------
BENDAHARM:PARS C_C3_18-08-01         C_C3_18-08-01         C_HC2_18-08-01         5.1150326465e+02  1.1989829011e+02 
BENDAHARM:PARS C_C3_18-08-01         C_C3_18-08-01         C_C3_18-08-01          4.4035227253e+02  1.2014428873e+02 
BENDAHARM:PARS C_C2O_18-08-01        C_C2O_18-08-01        C_HC2_18-08-01         5.3935900204e+02  1.2150845999e+02 
BENDAHARM:PARS C_C2O_18-08-01        C_C2O_18-08-01        O_BC_18-08-01          5.8295617756e+02  1.0883148805e+02 
BENDAHARM:PARS C_HC2_18-08-01        C_C2O_18-08-01        O_BC_18-08-01          5.2058123404e+02  1.3090202925e+02 
BENDAHARM:PARS C_C3_18-08-01         C_HC2_18-08-01        H_C_18-08-01           2.5090074330e+02  1.1637625172e+02 
BENDAHARM:PARS C_C2O_18-08-01

Note: Benchmarks/PeriodicFFValidation/input_files/PXRD/Structures_Database/bor_18-08-01_28-01-01_None/pars_uff.txt
# Bond stretch
# ============
#
# Mathematical form:
# E_BONDHARM = 0.5*K*(r - R0)**2
#

BONDHARM:UNIT K kcalmol/A**2
BONDHARM:UNIT R0 A

#---------------------------------------------------------------------------------------------
# KEY         label0                label1                 K                 R0               
#---------------------------------------------------------------------------------------------
BONDHARM:PARS O_BC_18-08-01         C_C2O_18-08-01         1.2933617741e+03  1.3119403439e+00 
BONDHARM:PARS C_HC2_18-08-01        C_C2O_18-08-01         9.2531010822e+02  1.3792564054e+00 
BONDHARM:PARS C_C3_18-08-01         C_C3_18-08-01          9.2531010822e+02  1.3792564054e+00 
BONDHARM:PARS O_BC_18-08-01         B_CO2_18-08-01         9.7745949279e+02  1.3997514169e+00 
BONDHARM:PARS C_HC2_18-08-01        C_C3_18-08-01          9.2531010822e+02  1.3792564054e+00 
BONDHARM:PARS C_HC2_18-08-01        H_C_18-08-01           7.1488076209e+02  1.0814180403e+00 
BONDHARM:PARS C_C2O_18-08-01        C_C2O_18-08-01         9.2531010822e+02  1.3792564054e+00 
BONDHARM:PARS C_HC2_HBC2_28-01-01   C_BC2_H2C2O2_28-01-01  9.2531010822e+02  1.3792564054e+00 
BONDHARM:PARS C_HC2_HC3_28-01-01    C_HC2_HBC2_28-01-01    9.2531010822e+02  1.3792564054e+00 
BONDHARM:PARS C_C3_H2C5_28-01-01    C_HC2_HC3_28-01-01     9.2531010822e+02  1.3792564054e+00 
BONDHARM:PARS H1_C_C2_28-01-01      C_HC2_HBC2_28-01-01    7.1488076209e+02  1.0814180403e+00 
BONDHARM:PARS C_C3_H2C5_28-01-01    C_C4_C8_28-01-01       7.3988786905e+02  1.4860000000e+00 
BONDHARM:PARS H0_C_C2_28-01-01      C_HC2_HC3_28-01-01     7.1488076209e+02  1.0814180403e+00 
BONDHARM:PARS C_BC2_H2C2O2_28-01-01 B_CO2_18-08-01         5.9061866953e+02  1.5568070836e+00 



# Angle bend
# ==========
#
# Mathematical form:
# E_BENDCHARM = 0.5*K*(cos(phi) - COS0)**2
#

BENDCHARM:UNIT K kcalmol
BENDCHARM:UNIT COS0 1

#--------------------------------------------------------------------------------------------------------------------
# KEY          label0                label1                label2                 K                 COS0             
#--------------------------------------------------------------------------------------------------------------------
BENDCHARM:PARS C_C3_H2C5_28-01-01    C_C4_C8_28-01-01      C_C3_H2C5_28-01-01     2.5486524131e+02 -3.3331324757e-01 



# Angle bend
# ==========
#
# Mathematical form:
# E_BENDCOS = 0.5*A*(1-cos(M*(phi - PHI0)))
#

BENDCOS:UNIT A kcalmol
BENDCOS:UNIT PHI0 rad

#---------------------------------------------------------------------------------------------------------------------
# KEY        label0                label1                label2                M   A                 PHI0             
#---------------------------------------------------------------------------------------------------------------------
BENDCOS:PARS C_C2O_18-08-01        C_HC2_18-08-01        C_C3_18-08-01         3   4.9465559266e+01  0.0000000000e+00 
BENDCOS:

Note: Benchmarks/PeriodicFFValidation/input_files/PXRD/Structures_Database/bor_18-08-01_28-01-01_None/README
bor_18-08-01_28-01-01_None (COF-108: Science, 2007, 316, 268-272)

Boronate ester linked COF in the bor topology, with
	Triangular SBU 18-08-01 (HHTP)
	Tetrahedral SBU 28-01-01 (TBPM)
	No linear linker
CURATED tag: 07013N3

PXRD obtained from Fig. S8 and converted to numerical data with WebPlotDigitizer (https://apps.automeris.io/wpd/)

File: COF-108_PXRD.dat
1.15, 0.0643778
1.27, 0.0643718
1.39, 0.0649216
1.51, 0.0668267
1.63, 0.0667174
1.75, 0.0667187
1.87, 0.066719
1.99, 0.0666276
2.11, 0.0692641
2.23, 0.0712502
2.35, 0.0739187
2.47, 0.0769259
2.59, 0.0816796
2.71, 0.0926449
2.83, 0.112244
2.95, 0.15384
3.07, 0.203786
3.19, 0.159293
3.31, 0.0821601
3.43, 0.0680154
3.55, 0.0643145
3.67, 0.0643753
3.79, 0.0648471
3.91, 0.0686579
4.03, 0.0719626
4.15, 0.0811837
4.27, 0.102698
4.39, 0.119438
4.51, 0.0953667
4.63, 0.0860499
4.75, 0.0994933
4.87, 0.13143
4.99, 0.181767
5.11, 0.288721
5.23, 0.538323
5.35, 0.8502
5.47, 0.471988
5.59, 0.144594
5.71, 0.0809122
5.83, 0.0670661
5.95, 0.0608564
6.07, 0.0596039
6.19, 0.0574556
6.31, 0.0564001
6.43, 0.0534762
6.55, 0.0537323
6.67, 0.0526531
6.79, 0.0562101
6.91, 0.0588116
7.03, 0.0580454
7.15, 0.0598866
7.27, 0.0676977
7.39, 0.09274
7.51, 0.135874
7.63, 0.139526
7.75, 0.0935748
7.87, 0.0604039
7.99, 0.0519884
8.11, 0.050226
8.23, 0.0515032
8.35, 0.0549284
8.47, 0.0632909
8.59, 0.0790704
8.71, 0.11605
8.83, 0.128335
8.95, 0.0869724
9.07, 0.0642552
9.19, 0.0608564
9.31, 0.0644406
9.43, 0.0575081
9.55, 0.0499044
9.67, 0.046644
9.79, 0.0468224
9.91, 0.0468209
10.03, 0.0468237
10.15, 0.0516246
10.27, 0.0565692
10.39, 0.057037
10.51, 0.0526385
10.63, 0.0555191
10.75, 0.0607448
10.87, 0.0608191
10.99, 0.0596374
11.11, 0.0645221
11.23, 0.0721981
11.35, 0.0644902
11.47, 0.0530551
11.59, 0.0504097
11.71, 0.0490843
11.83, 0.0466372
11.95, 0.045821
12.07, 0.0432853
12.19, 0.0457139
12.31, 0.0456407
12.43, 0.0467903
12.55, 0.050277
12.67, 0.0569941
12.79, 0.070253
12.91, 0.0722204
13.03, 0.0611461
13.15, 0.0502952
13.27, 0.0491027
13.39, 0.0505316
13.51, 0.0578239
13.63, 0.0607795
13.75, 0.0590165
13.87, 0.0561261
13.99, 0.0561442
14.11, 0.0526765
14.23, 0.0502528
14.35, 0.0480277
14.47, 0.0498099
14.59, 0.0516118
14.71, 0.0514676
14.83, 0.0503564
14.95, 0.0479937
15.07, 0.0479901
15.19, 0.0480063
15.31, 0.0498183
15.43, 0.0502103
15.55, 0.0515033
15.67, 0.0547667
15.79, 0.0633234
15.91, 0.0741084
16.03, 0.0797445
16.15, 0.0680778
16.27, 0.0593937
16.39, 0.0543697
16.51, 0.0515356
16.63, 0.0503909
16.75, 0.05151
16.87, 0.051502
16.99, 0.0515021
17.11, 0.0515028
17.23, 0.0514757
17.35, 0.050322
17.47, 0.0503129
17.59, 0.0529624
17.71, 0.0561787
17.83, 0.0579011
17.95, 0.0560407
18.07, 0.0551951
18.19, 0.0561654
18.31, 0.0596809
18.43, 0.0581031
18.55, 0.056157
18.67, 0.0550443
18.79, 0.0550131
18.91, 0.0550182
19.03, 0.0538318
19.15, 0.0515208
19.27, 0.0515016
19.39, 0.0515027
19.51, 0.0514686
19.63, 0.0502585
19.75, 0.0514062
19.87, 0.0515161
19.99, 0.0564085
20.11, 0.0573384
20.23, 0.0561758
20.35, 0.0551331
20.47, 0.052638
20.59, 0.0515737
20.71, 0.0515029
20.83, 0.0515132
20.95, 0.0530964
21.07, 0.0549889
21.19, 0.054987
21.31, 0.052923
21.43, 0.0515048
21.55, 0.0515022
21.67, 0.0515021
21.79, 0.0515021
21.91, 0.0515021
22.03, 0.0515021
22.15, 0.0515021
22.27, 0.0515021
22.39, 0.0515021
22.51, 0.051507
22.63, 0.0510351
22.75, 0.0509859
22.87, 0.0515077
22.99, 0.0515021
23.11, 0.0515021
23.23, 0.0515021
23.35, 0.0515021
23.47, 0.0515023
23.59, 0.0514953
23.71, 0.0522871
23.83, 0.0527093
23.95, 0.0526582
24.07, 0.0526845
24.19, 0.0540391
24.31, 0.0533457
24.43, 0.0528316
24.55, 0.0515182
24.67, 0.0515019
24.79, 0.0514993
24.91, 0.0502353
25.03, 0.0499404
25.15, 0.0478859
25.27, 0.0500169
25.39, 0.0512842
25.51, 0.0526023
25.63, 0.0515143
25.75, 0.0515048
25.87, 0.0511646
25.99, 0.047898
26.11, 0.0479836
26.23, 0.0489519
26.35, 0.0479818
26.47, 0.0479905
26.59, 0.0479739
26.71, 0.0466941
26.83, 0.0468217
26.95, 0.0468507
27.07, 0.0481199
27.19, 0.046821
27.31, 0.0468202
27.43, 0.04682
27.55, 0.0468276
27.67, 0.0461398
27.79, 0.0456445
27.91, 0.0456497
28.03, 0.0456496
28.15, 0.0456496
28.27, 0.0456499
28.39, 0.0456282
28.51, 0.0436613
28.63, 0.0433135
28.75, 0.0422353
28.87, 0.0421386
28.99, 0.0421381
29.11, 0.0421381
29.23, 0.0421381
29.35, 0.0421381
29.47, 0.0421381
29.59, 0.0421381
29.71, 0.0421381
29.83, 0.042138
29.95, 0.0421446
30.07, 0.0415497
30.19, 0.0409681
30.31, 0.0400882
30.43, 0.0397983
30.55, 0.0409482
30.67, 0.0386469
30.79, 0.0386262
30.91, 0.0386266
31.03, 0.0386261
31.15, 0.0386468
31.27, 0.0409299
31.39, 0.047213
31.51, 0.0474338
31.63, 0.0390119
31.75, 0.0386242
31.87, 0.0386266
31.99, 0.0386266
32.11, 0.0386266
32.23, 0.0386266
32.35, 0.0386266
32.47, 0.0386266
32.59, 0.0386266
32.71, 0.0386266
32.83, 0.0386266
32.95, 0.0386265
33.07, 0.0386674
33.19, 0.037489
33.31, 0.0374637
33.43, 0.0367121
33.55, 0.0372059
33.67, 0.0374621
33.79, 0.0362523
33.91, 0.0362875
34.03, 0.0362856
34.15, 0.0362856
34.27, 0.0362856
34.39, 0.0362857
34.51, 0.0362845
34.63, 0.0362058
34.75, 0.0362529
34.87, 0.0358957
34.89, 0.0352185