Folder: SupportingInformation_ReDD-COFFEE_2023/Benchmarks/PeriodicFFValidation/input_files/PXRD/Structures_Database/ctn_33-11-02_29-01-02_None

Note: Benchmarks/PeriodicFFValidation/input_files/PXRD/Structures_Database/ctn_33-11-02_29-01-02_None/pars_cluster.txt
# Bond stretch
# ============
#
# Mathematical form:
# E_BONDHARM = 0.5*K*(r - R0)**2
#

BONDHARM:UNIT  K kjmol/A**2
BONDHARM:UNIT  R0 A

#---------------------------------------------------------------------------------------------
# KEY         label0                label1                 K                 R0               
#---------------------------------------------------------------------------------------------
BONDHARM:PARS B_33-11-02            O_33-11-02             3.4291936007e+03  1.3868155740e+00 
BONDHARM:PARS C_BC2_H2C2O2_29-01-02 C_HC2_HBC2_29-01-02    3.8179995702e+03  1.3996274492e+00 
BONDHARM:PARS C_HC2_HBC2_29-01-02   C_HC2_HC2Si_29-01-02   3.9806774446e+03  1.3896690787e+00 
BONDHARM:PARS C_C2Si_H2C5_29-01-02  Si_C4_C8_29-01-02      1.7060480946e+03  1.8997037720e+00 
BONDHARM:PARS C_C2Si_H2C5_29-01-02  C_HC2_HC2Si_29-01-02   3.7829436056e+03  1.3999010490e+00 
BONDHARM:PARS C_HC2_HBC2_29-01-02   H1_C_C2_29-01-02       3.3278556207e+03  1.0863792142e+00 
BONDHARM:PARS C_HC2_HC2Si_29-01-02  H0_C_C2_29-01-02       3.2984748363e+03  1.0876709451e+00 
BONDHARM:PARS B_33-11-02            C_BC2_H2C2O2_29-01-02  2.5402903067e+03  1.5645219922e+00 



# Angle bend
# ==========
#
# Mathematical form:
# E_BENDAHARM = 0.5*K*(theta - THETA0)**2
#

BENDAHARM:UNIT  K kjmol/rad**2
BENDAHARM:UNIT  THETA0 deg

#--------------------------------------------------------------------------------------------------------------------
# KEY          label0                label1                label2                 K                 THETA0           
#--------------------------------------------------------------------------------------------------------------------
BENDAHARM:PARS B_33-11-02            O_33-11-02            B_33-11-02             3.5558318329e+02  1.1901928931e+02 
BENDAHARM:PARS O_33-11-02            B_33-11-02            O_33-11-02             4.3320306286e+02  1.2070808680e+02 
BENDAHARM:PARS C_C2Si_H2C5_29-01-02  Si_C4_C8_29-01-02     C_C2Si_H2C5_29-01-02   4.7940522771e+02  1.1029671544e+02 
BENDAHARM:PARS C_HC2_HBC2_29-01-02   C_BC2_H2C2O2_29-01-02 C_HC2_HBC2_29-01-02    5.5954892201e+02  1.1825162985e+02 
BENDAHARM:PARS C_BC2_H2C2O2_29-01-02 C_HC2_HBC2_29-01-02   C_HC2_HC2Si_29-01-02   5.6768369341e+02  1.2097618388e+02 
BENDAHARM:PARS C_BC2_H2C2O2_29-01-02 C_HC2_HBC2_29-01-02   H1_C_C2_29-01-02       3.1352269800e+02  1.1865405980e+02 
BENDAHARM:PARS C_HC2_HC2Si_29-01-02  C_HC2_HBC2_29-01-02   H1_C_C2_29-01-02       2.9620257625e+02  1.2001638290e+02 
BENDAHARM:PARS C_C2Si_H2C5_29-01-02  C_HC2_HC2Si_29-01-02  C_HC2_HBC2_29-01-02    5.8772452391e+02  1.2089019283e+02 
BENDAHARM:PARS C_C2Si_H2C5_29-01-02  C_HC2_HC2Si_29-01-02  H0_C_C2_29-01-02       3.1204994702e+02  1.1907377673e+02 
BENDAHARM:PARS C_HC2_HBC2_29-01-02   C_HC2_HC2Si_29-01-02  H0_C_C2_29-01-02       3.1433356589e+02  1.1934115005e+02 
BENDAHARM:PARS C_HC2_HC2Si_29-01-02  C_C2Si_H2C5_29-01-02  Si_C4_C8_29-01-02      1.1051270155e+02  1.1908248032e+02 
BENDAHARM

Note: Benchmarks/PeriodicFFValidation/input_files/PXRD/Structures_Database/ctn_33-11-02_29-01-02_None/README
ctn_33-11-02_29-01-02_None (COF-103: Science, 2007, 316, 268-272)

Boroxine linked COF in the ctn topology, with
	Triangular SBU 33-11-02 (Boroxine)
	Tetrahedral SBU 29-01-02 (TBPS)
	No linear linker
CURATED tag: 07011N3

PXRD obtained from Fig. S4 and converted to numerical data with WebPlotDigitizer (https://apps.automeris.io/wpd/)

File: COF-103_PXRD.dat
2.04, 0.0606631
2.18, 0.0594278
2.32, 0.0594079
2.46, 0.0567899
2.6, 0.0568923
2.74, 0.0542731
2.88, 0.0543403
3.02, 0.0543407
3.16, 0.0543407
3.3, 0.0543407
3.44, 0.0543407
3.58, 0.0543407
3.72, 0.0543407
3.86, 0.0543407
4, 0.0543407
4.14, 0.0543407
4.28, 0.0543407
4.42, 0.0543407
4.56, 0.0543407
4.7, 0.0543407
4.84, 0.0543407
4.98, 0.0543407
5.12, 0.0543407
5.26, 0.0543407
5.4, 0.0543407
5.54, 0.0543407
5.68, 0.0543407
5.82, 0.0543407
5.96, 0.0543407
6.1, 0.0543407
6.24, 0.0543407
6.38, 0.0543402
6.52, 0.0543419
6.66, 0.0570277
6.8, 0.0593656
6.94, 0.0623628
7.08, 0.0739544
7.22, 0.106356
7.36, 0.157504
7.5, 0.404061
7.64, 0.683495
7.78, 0.77834
7.92, 0.469579
8.06, 0.0915121
8.2, 0.0642275
8.34, 0.0616572
8.48, 0.0623384
8.62, 0.0730134
8.76, 0.0974444
8.9, 0.127737
9.04, 0.110458
9.18, 0.0719449
9.32, 0.0551503
9.46, 0.0543434
9.6, 0.0543406
9.74, 0.0543407
9.88, 0.0543407
10.02, 0.0543407
10.16, 0.0543407
10.3, 0.0543407
10.44, 0.0543407
10.58, 0.0543407
10.72, 0.0543407
10.86, 0.0543407
11, 0.0543406
11.14, 0.0543226
11.28, 0.0569271
11.42, 0.0602871
11.56, 0.0676199
11.7, 0.093008
11.84, 0.109995
11.98, 0.0818709
12.12, 0.0616778
12.26, 0.0592884
12.4, 0.0637555
12.54, 0.0732431
12.68, 0.0740203
12.82, 0.066062
12.96, 0.0570257
13.1, 0.0569397
13.24, 0.0568952
13.38, 0.0593941
13.52, 0.0593932
13.66, 0.0593826
13.8, 0.0601893
13.94, 0.0709284
14.08, 0.0824599
14.22, 0.0779067
14.36, 0.0671853
14.5, 0.0718316
14.64, 0.097513
14.78, 0.127685
14.92, 0.100576
15.06, 0.0688454
15.2, 0.0641449
15.34, 0.0687507
15.48, 0.0708043
15.62, 0.0646834
15.76, 0.0619404
15.9, 0.0697052
16.04, 0.0798934
16.18, 0.0814722
16.32, 0.066481
16.46, 0.0622363
16.6, 0.0619248
16.74, 0.0619231
16.88, 0.0619233
17.02, 0.0619073
17.16, 0.0647367
17.3, 0.0668568
17.44, 0.0644259
17.58, 0.0619091
17.72, 0.0619226
17.86, 0.0619231
18, 0.061923
18.14, 0.0619217
18.28, 0.0633921
18.42, 0.0657023
18.56, 0.0618412
18.7, 0.0619227
18.84, 0.0619231
18.98, 0.0619231
19.12, 0.0619162
19.26, 0.0635783
19.4, 0.0679971
19.54, 0.0679085
19.68, 0.0621665
19.82, 0.0619286
19.96, 0.061923
20.1, 0.0619057
20.24, 0.0644556
20.38, 0.0685769
20.52, 0.0694175
20.66, 0.0623109
20.8, 0.0606815
20.94, 0.0607934
21.08, 0.0593384
21.22, 0.0606733
21.36, 0.0618901
21.5, 0.0619229
21.64, 0.0618606
21.78, 0.0644996
21.92, 0.0671527
22.06, 0.064416
22.2, 0.0709647
22.34, 0.0770195
22.48, 0.0699259
22.62, 0.0631578
22.76, 0.0599257
22.9, 0.0594024
23.04, 0.060753
23.18, 0.0620037
23.32, 0.060534
23.46, 0.0594251
23.6, 0.0593952
23.74, 0.0593956
23.88, 0.0593953
24.02, 0.0593469
24.16, 0.0567985
24.3, 0.0568667
24.44, 0.0568681
24.58, 0.0568698
24.72, 0.0568602
24.86, 0.0593785
25, 0.0580636
25.14, 0.0542523
25.28, 0.0543404
25.42, 0.0543407
25.56, 0.0543407
25.7, 0.0543407
25.84, 0.0543407
25.98, 0.0543407
26.12, 0.0543407
26.26, 0.0543407
26.4, 0.0543407
26.54, 0.0543407
26.68, 0.0543407
26.82, 0.0543407
26.96, 0.0543407
27.1, 0.0543407
27.24, 0.0543407
27.38, 0.0543407
27.52, 0.0543407
27.66, 0.0543407
27.8, 0.0543406
27.94, 0.0543387
28.08, 0.054597
28.22, 0.0518644
28.36, 0.050565
28.5, 0.0505496
28.64, 0.0505495
28.78, 0.0505496
28.92, 0.0505449
29.06, 0.051941
29.2, 0.0530277
29.34, 0.0543472
29.48, 0.0543392
29.62, 0.052371
29.76, 0.0505458
29.9, 0.0505496
30.04, 0.0505495
30.18, 0.0505495
30.32, 0.0505495
30.46, 0.0505495
30.6, 0.0505495
30.74, 0.0505495
30.88, 0.0505495
31.02, 0.0505495
31.16, 0.0505495
31.3, 0.0505495
31.44, 0.0505495
31.58, 0.0505495
31.72, 0.0505495
31.86, 0.0505495
32, 0.0505495
32.14, 0.0505495
32.28, 0.0505495
32.42, 0.0505495
32.56, 0.0505495
32.7, 0.0505495
32.84, 0.0505495
32.98, 0.0505495
33.12, 0.0505495
33.26, 0.0505495
33.4, 0.050548
33.54, 0.0499985
33.68, 0.049188
33.82, 0.048744
33.96, 0.0505577
34.1, 0.0505477
34.24, 0.0505494
34.38, 0.0505493
34.52, 0.0505401
34.66, 0.0491948
34.8, 0.0492838
34.94, 0.049449
35.08, 0.0495288
35.22, 0.0505619
35.36, 0.0491458
35.5, 0.0504042
35.64, 0.0505469
35.78, 0.0505482
35.92, 0.0499683
36.06, 0.0480263
36.2, 0.0504812
36.34, 0.0505494
36.48, 0.0505495
36.62, 0.0505495
36.76, 0.0505495
36.9, 0.0505495
37.04, 0.0505495
37.18, 0.0505495
37.32, 0.0505495
37.46, 0.0505495
37.6, 0.0505495
37.74, 0.0505495
37.88, 0.0505495
38.02, 0.0505495
38.16, 0.0505495
38.3, 0.0505495
38.44, 0.0505495
38.58, 0.0505495
38.72, 0.0505495
38.86, 0.0505495
39, 0.0505495
39.14, 0.0505495
39.28, 0.0505495
39.42, 0.0505495
39.56, 0.0505495
39.7, 0.0505495
39.84, 0.0505494
39.98, 0.0505495
40.12, 0.0505566
40.26, 0.0493811
40.4, 0.0487958
40.54, 0.0492863
40.68, 0.0480912
40.82, 0.0492857
40.96, 0.0487158
41.1, 0.0493506
41.24, 0.0479055
41.38, 0.049419
41.52, 0.049407
41.66, 0.047912
41.8, 0.0480324
41.94, 0.0466324
42.08, 0.0467593
42.22, 0.0467583
42.36, 0.0467582
42.5, 0.0467582
42.64, 0.0467582
42.78, 0.0467582
42.92, 0.0467582
43.06, 0.0467582
43.2, 0.0467582
43.34, 0.0467582
43.48, 0.0467582
43.62, 0.0467582
43.76, 0.0467582
43.9, 0.0467582
44, 0.0467582