Folder: SupportingInformation_ReDD-COFFEE_2023/Benchmarks/PeriodicFFValidation/input_files/PXRD/Structures_Database/sql_24-01-01_10-08-01

Note: Benchmarks/PeriodicFFValidation/input_files/PXRD/Structures_Database/sql_24-01-01_10-08-01/README
sql_24-01-01_10-08-01 (COF-66: Chem. Mater., 2011, 23, 4094-4097)

Boronate ester linked COF in the sql topology, with
	Square SBU 24-01-01 (TBPP)
	Linear SBU 10-08-01 (THAn)
CURATED tag: 11031N2

PXRD obtained from Fig. S2 and converted to numerical data with WebPlotDigitizer (https://apps.automeris.io/wpd/)

File: COF-66_PXRD.dat
1.25, 0.164115
1.42, 0.155915
1.59, 0.148842
1.76, 0.146525
1.93, 0.148991
2.1, 0.159814
2.27, 0.177669
2.44, 0.225282
2.61, 0.304281
2.78, 0.523219
2.95, 0.815791
3.12, 0.895509
3.29, 0.684912
3.46, 0.453869
3.63, 0.257862
3.8, 0.164375
3.97, 0.127455
4.14, 0.107827
4.31, 0.0973864
4.48, 0.0905129
4.65, 0.0822519
4.82, 0.076149
4.99, 0.0701776
5.16, 0.0689964
5.33, 0.0695474
5.5, 0.0808222
5.67, 0.110559
5.84, 0.167051
6.01, 0.207502
6.18, 0.186093
6.35, 0.171789
6.52, 0.169123
6.69, 0.147679
6.86, 0.11233
7.03, 0.0917075
7.2, 0.0779983
7.37, 0.0688362
7.54, 0.0620511
7.71, 0.0568791
7.88, 0.0545367
8.05, 0.0509346
8.22, 0.0488449
8.39, 0.0488597
8.56, 0.0488148
8.73, 0.0500632
8.9, 0.0547467
9.07, 0.0548184
9.24, 0.0548111
9.41, 0.0551408
9.58, 0.0598418
9.75, 0.0594658
9.92, 0.0568592
10.09, 0.0548669
10.26, 0.0508736
10.43, 0.0498515
10.6, 0.0487501
10.77, 0.0455206
10.94, 0.0451708
11.11, 0.044002
11.28, 0.0453958
11.45, 0.0450732
11.62, 0.0438286
11.79, 0.0453547
11.96, 0.0453118
12.13, 0.0479012
12.3, 0.0489642
12.47, 0.0488718
12.64, 0.050173
12.81, 0.0515877
12.98, 0.0523865
13.15, 0.053232
13.32, 0.0548314
13.49, 0.0546547
13.66, 0.0547741
13.83, 0.054876
14, 0.0539112
14.17, 0.0548247
14.34, 0.0548168
14.51, 0.0548169
14.68, 0.0548163
14.85, 0.0548526
15.02, 0.0574361
15.19, 0.0572152
15.36, 0.0584426
15.53, 0.0595464
15.7, 0.0597371
15.87, 0.058877
16.04, 0.0611975
16.21, 0.0615911
16.38, 0.0605406
16.55, 0.0619375
16.72, 0.0619675
16.89, 0.061967
17.06, 0.061967
17.23, 0.0619671
17.4, 0.0619611
17.57, 0.062304
17.74, 0.064487
17.91, 0.0640987
18.08, 0.0622441
18.25, 0.0640055
18.42, 0.0626595
18.59, 0.0642746
18.76, 0.0643478
18.93, 0.0645937
19.1, 0.0650495
19.27, 0.0642601
19.44, 0.0655894
19.61, 0.0644909
19.78, 0.064509
19.95, 0.0643969
20.12, 0.0626099
20.29, 0.0636803
20.46, 0.064933
20.63, 0.0641174
20.8, 0.0641786
20.97, 0.0651084
21.14, 0.0667519
21.31, 0.0667333
21.48, 0.0667354
21.65, 0.0666413
21.82, 0.0679823
21.99, 0.0667621
22.16, 0.0671299
22.33, 0.0680606
22.5, 0.0675893
22.67, 0.0678552
22.84, 0.0665167
23.01, 0.0675715
23.18, 0.0656642
23.35, 0.0643351
23.52, 0.0615869
23.69, 0.0618073
23.86, 0.0620607
24.03, 0.0612403
24.2, 0.0621463
24.37, 0.0583374
24.54, 0.0580499
24.71, 0.0560069
24.88, 0.0546881
25.05, 0.0548198
25.22, 0.0547969
25.39, 0.0530382
25.56, 0.0524072
25.73, 0.0506225
25.9, 0.0486277
26.07, 0.0495445
26.24, 0.0489547
26.41, 0.0477013
26.58, 0.0476642
26.75, 0.0477729
26.92, 0.0465168
27.09, 0.0459909
27.26, 0.0447798
27.43, 0.0440907
27.6, 0.0435911
27.77, 0.0428911
27.94, 0.0429004
28.11, 0.0428999
28.28, 0.0429149
28.45, 0.0419253
28.62, 0.0431336
28.79, 0.0428914
28.96, 0.0431239
29.13, 0.0405914
29.3, 0.0400132
29.47, 0.0406001
29.64, 0.039312
29.81, 0.038172
29.98, 0.0379885
30.15, 0.0379461
30.32, 0.0368109
30.49, 0.0376133
30.66, 0.0370994
30.83, 0.0357823
31, 0.0357496
31.17, 0.0357502
31.34, 0.0357502
31.51, 0.0357502
31.68, 0.0357502
31.85, 0.0357479
32.02, 0.0358709
32.19, 0.0344822
32.36, 0.0350265
32.53, 0.0343688
32.7, 0.033199
32.87, 0.0333648
33.04, 0.0336418
33.21, 0.0322772
33.38, 0.0340392
33.55, 0.0327453
33.72, 0.0320213
33.89, 0.031406
34.06, 0.030978
34.23, 0.0309814
34.4, 0.0310975
34.57, 0.0304541
34.74, 0.0311175
34.91, 0.0296657
35.08, 0.029646
35.25, 0.0297946
35.42, 0.0297924
35.59, 0.0297606
35.76, 0.0283738
35.93, 0.02898
36.1, 0.0297124
36.27, 0.0291216
36.44, 0.0284981
36.61, 0.0286448
36.78, 0.0292265
36.95, 0.0285902
37.12, 0.0285979
37.29, 0.0287264
37.46, 0.0274501
37.63, 0.0265367
37.8, 0.0274825
37.97, 0.0271295
38.14, 0.0286245
38.31, 0.0275149
38.48, 0.0274147
38.65, 0.0270541
38.82, 0.0286059
38.99, 0.0274354
39.16, 0.0261734
39.33, 0.0279214
39.5, 0.0262635
39.67, 0.0279325
39.84, 0.026277
40.01, 0.0269521
40.18, 0.0274164
40.35, 0.0273739
40.52, 0.0261161
40.69, 0.0262505
40.86, 0.027642
41.03, 0.0259217
41.2, 0.0256446
41.37, 0.0258437
41.54, 0.0275064
41.71, 0.0270114
41.88, 0.0274155
42.05, 0.0273739
42.22, 0.0261237
42.39, 0.0261313
42.56, 0.0280185
42.73, 0.025945
42.9, 0.0271563
43.07, 0.0269821
43.24, 0.027
43.41, 0.0274502
43.58, 0.0286562
43.75, 0.0273145
43.92, 0.027538
44.09, 0.0262345
44.26, 0.026869
44.43, 0.0273561
44.6, 0.0270494
44.77, 0.0260416
44.94, 0.0261083
45.11, 0.0262189
45.28, 0.0262168
45.45, 0.0262137
45.62, 0.0263768
45.79, 0.0263215
45.96, 0.026236
46.13, 0.0243529
46.3, 0.0244541
46.47, 0.0253792
46.64, 0.0264192
46.81, 0.0248859
46.98, 0.0249745
47.15, 0.024646
47.32, 0.0246609
47.49, 0.0242151
47.66, 0.023827
47.83, 0.0238224
48, 0.0248383
48.17, 0.0238587
48.34, 0.023833
48.51, 0.0238335
48.68, 0.0238334
48.85, 0.0238334
49.02, 0.0238334
49.19, 0.0238334
49.36, 0.0238334
49.53, 0.0238334
49.65, 0.0238334